# frek [Hz] rms U2 [V]
63000 +7.26238817E-02
63100 +7.75011487E-02
63200 +8.28503475E-02
63300 +8.87035765E-02
63400 +9.51320760E-02
63500 +1.02158786E-01
63600 +1.09864150E-01
63700 +1.18273652E-01
63800 +1.27284345E-01
63900 +1.37155725E-01
64000 +1.47751106E-01
64100 +1.58952071E-01
64200 +1.70632237E-01
64300 +1.82536529E-01
64400 +1.94334529E-01
64500 +2.05614451E-01
64600 +2.15913227E-01
64700 +2.24770710E-01
64800 +2.31840648E-01
64900 +2.36920929E-01
65000 +2.40087774E-01
65100 +2.41611090E-01
65200 +2.41656809E-01
65300 +2.40562905E-01
65400 +2.38710363E-01
65500 +2.36372401E-01
65600 +2.33862273E-01
65700 +2.31392291E-01
65800 +2.29099470E-01
65900 +2.27125850E-01
66000 +2.25564338E-01
66100 +2.24585247E-01
66200 +2.23942760E-01
66300 +2.23788893E-01
66400 +2.24102032E-01
66500 +2.24897309E-01
66600 +2.26138328E-01
66700 +2.27764846E-01
66800 +2.29727168E-01
66900 +2.31903706E-01
67000 +2.34191136E-01
67100 +2.36393650E-01
67200 +2.38309920E-01
67300 +2.39631739E-01
67400 +2.40107031E-01
67500 +2.39432110E-01
67600 +2.37305425E-01
67700 +2.33548808E-01
67800 +2.28075986E-01
67900 +2.20958568E-01
68000 +2.12395778E-01
68100 +2.02700494E-01
68200 +1.92229910E-01
68300 +1.81344837E-01
68400 +1.70415877E-01
68500 +1.59665859E-01
68600 +1.49300271E-01
68700 +1.39464654E-01
68800 +1.30234846E-01
68900 +1.21642707E-01
69000 +1.13675943E-01
69100 +1.06340493E-01
69200 +9.97188151E-02
69300 +9.34989132E-02
69400 +8.78080972E-02
69500 +8.25833932E-02
69600 +7.77900852E-02
69700 +7.33773269E-02
69800 +6.93215922E-02
69900 +6.55787021E-02
70000 +6.21320754E-02
